{
  "resourceType": "DiagnosticReport",
  "id": "mCODEGenomicsReportExample01",
  "meta": {
    "versionId": "0.1",
    "lastUpdated": "2019-04-01T15:35:58.045+00:00",
    "profile": [
      "http://hl7.org/fhir/us/shr/StructureDefinition/onco-core-GenomicsReport"
    ]
  },
  "text": {
    "status": "generated",
    "div": "<div xmlns=\"http://www.w3.org/1999/xhtml\"><p><b>Clinical Genomics Report Example</b> - Generated Narrative</p><p><b>Test id</b>: mCODEGenomicsReportExample01</p><p><b>Performer</b>: Foundation Medicine</p><p><b>Test Name</b>: FoundationOne</p><p><b>Status</b>: final</p><p><b>Subject</b>: John B. Anyperson</p><p></p><p><b>Generated Summary:</b></p><p><b>id:</b> Medical Record Number = m123 (USUAL)</p><p><b>Effective</b>: 04/01/2019</p><p><b>Genetic Region Analyzed</b>: STK11: serine/threonine kinase 11</p><p><b>Gene variant presence</b>: DETECTED</p><p><b>Genomic source class [Type]</b>: Somatic</p><p><b>Variant HGVS name</b>: NM_000455.4:c.921-1G>C</p><p><b>Variant common name</b>: STK11 single nucleotide variant - translocation at c921-1 from G to C</p></div>"
  },
  "contained": [
      {
        "resourceType": "Observation",
        "id": "mCODEGeneticRegionAnalyzedExample01",
        "meta": {
          "profile": [
            "http://hl7.org/fhir/us/shr/StructureDefinition/onco-core-GeneticRegionAnalyzed"
          ]
        },
        "contained": [
          {
            "resourceType": "Observation",
            "id": "mCODEGeneticVariantFoundExample01",
            "meta": {
              "profile": [
                "http://hl7.org/fhir/us/shr/StructureDefinition/onco-core-GeneticVariantFound"
              ]
            },
            "status": "final",
            "category": 
              {
                "coding": [
                  {
                    "system": "http://terminology.hl7.org/CodeSystem/observation-category",
                    "code": "laboratory"
                  }
                ]
              },
            "code": {
              "coding": [
                {
                  "system": "http://loinc.org",
                  "code": "69548-6",
                  "display": "Genetic variant assessment"
                },
                {
                  "system": "http://loinc.org",
                  "code": "53795-1",
                  "display": "STK11 gene targeted mutation analysis in Blood or Tissue by Molecular genetics method Narrative"
                }
              ]
            },
            "subject": {
              "reference": "Patient/mCODEPatientExample01",
              "display": "John B. Anyperson"
            },
            "effectiveDateTime": "2019-04-01",
            "component": [
              {
                  "code": {
                    "coding": [
                      {
                        "system": "http://loinc.org",
                        "code": "48002-0",
                        "display": "Genomic source class [Type]"
                      }
                    ]
                  },
                  "valueCodeableConcept": {
                    "coding": [
                      {
                        "system": "http://hl7.org/fhir/us/mcode/onco-core/vs/GenomicSourceClassVS",
                        "code": "LA6684-0",
                        "display": "Somatic"
                      }
                    ],
                    "text": "Somatic"
                  }
                },
                {
                  "code": {
                    "coding": [
                      {
                        "system": "http://loinc.org",
                        "code": "81260-2",
                        "display": "Complex genetic variant [ID]"
                      }
                    ]
                  },
                  "valueCodeableConcept": {
                    "coding": [
                      {
                        "system": "https://www.ncbi.nlm.nih.gov/clinvar",
                        "version": "3.31.0",
                        "code": "372524"
                      }
                    ],
                    "text": "NM_000455.4(STK11):c.921-1G>C"
                  }
                },
                {
                  "code": {
                    "coding": [
                      {
                        "system": "http://loinc.org",
                        "code": "81262-8",
                        "display": "Complex variant HGVS name"
                      }
                    ]
                  },
                  "valueCodeableConcept": {
                    "coding": [
                      {
                        "system": "http://varnomen.hgvs.org",
                        "code": "NM_000455.4:c.921-1G>C",
                        "display": "NM_000455.4:c.921-1G>C"
                      }
                    ]
                  }
                },
                {
                  "code": {
                    "coding": [
                      {
                        "system": "http://loinc.org",
                        "code": "47998-0",
                        "display": "Complex variant common name"
                      }
                    ]
                  },
                  "valueString": "STK11 single nucleotide variant - translocation at c921-1 from G to C"
                }
            ]
          }
        ],
        "status": "final",
        "category": {
          "coding": [
              {
                  "system": "http://terminology.hl7.org/CodeSystem/observation-category",
                  "code": "laboratory"
              }
          ]
        },
        "code": {
          "coding": [
              {
                "system": "http://loinc.org",
                "code": "53041-0",
                "display": "DNA region of interest panel"
              }
          ]
      },
      "subject": {
        "reference": "Patient/mCODEPatientExample01",
        "display": "John B. Anyperson"
      },
      "effectiveDateTime": "2019-04-01",
      "valueCodeableConcept": {
        "coding": [
          {
            "system": "http://snomed.info/sct",
            "version": "0.8.1",
            "code": "260373001",
            "display":"Detected (qualifier value)"
          }
        ]
      },
      "related": [
        {
          "type": "has-member",
          "target": {
            "reference": "http://hl7.org/fhir/us/shr/StructureDefinition/onco-core-GeneticVariantFound/mCODEGeneticVariantFoundExample01",
            "display": "Genetic variant found"
          }
        }
      ],
      "component": [
        {
            "code": {
              "coding": [
                {
                  "system": "http://loinc.org",
                  "code": "48018-6",
                  "display": "Gene studied [ID]"
                }
              ]
            },
            "valueCodeableConcept": {
              "coding": [
                {
                  "system": "https://www.genenames.org/",
                  "code": "HGNC:11389",
                  "display": "STK11: serine/threonine kinase 11"
                }
              ],
              "text": "STK11"
            }
          },
          {
            "code": {
              "coding": [
                {
                  "system": "http://loinc.org",
                  "code": "36908-2",
                  "display": "Gene mutations tested for in Blood or Tissue by Molecular genetics method Nominal"
                }
              ]
            },
            "valueCodeableConcept": {
              "coding": [
                {
                  "system": "http://varnomen.hgvs.org",
                  "version": "3.31.0",
                  "code": "372524"
                }
              ],
              "text": "NM_000455.4:c.921-1G>C"
            }
          }
      ]
    }
  ],
  "status": "final",
  "category": {
    "coding": [
      {
        "system": "http://hl7.org/fhir/v2/0074",
        "code": "GE",
        "display": "Genetics"
      }
    ]
  },
  "code": {
    "coding": [
      {
        "display": "FoundationOne"
      }
    ]
  },
  "subject": {
    "reference": "Patient/mCODEPatientExample01",
    "display": "John B. Anyperson"
  },
  "effectiveDateTime": "2019-04-01",
  "issued": "2019-04-01T11:45:33+11:00",
  "performer": [
    {
      "reference": "Organization/mCODEOrgExample01-FM"
    }
  ],
  "result": [
    {
      "reference": "Observation/mCODEGeneticRegionAnalyzedExample01",
      "display": "GeneticRegionAnalyzed"
    }
  ]
}