{
  "resourceType": "DiagnosticReport",
  "id": "mCODEGenomicsReportExample01",
  "meta": {
    "versionId": "0.1",
    "lastUpdated": "2019-04-01T15:35:58.045+00:00",
    "profile": [
      "http://hl7.org/fhir/us/shr/StructureDefinition/onco-core-GenomicsReport"
    ]
  },
  "text": {
    "status": "generated",
    "div": "<div xmlns=\"http://www.w3.org/1999/xhtml\"><p><b>Clinical Genomics Report Example</b> - Generated Narrative</p><p><b>Test id</b>: mCODEGenomicsReportExample01</p><p><b>Performer</b>: Foundation Medicine</p><p><b>Test Name</b>: FoundationOne</p><p><b>Status</b>: final</p><p><b>Subject</b>: John B. Anyperson</p><p></p><p><b>Generated Summary:</b></p><p><b>id:</b> Medical Record Number = m123 (USUAL)</p><p><b>Effective</b>: 04/01/2019</p><p><b>Genetic Mutation Tested</b>: STK11</p><p><b>Gene variant presence</b>: DETECTED</p><p><b>Genomic source class</b>: Somatic</p><p><b>Variant HGVS name</b>: NM_000455.4:c.921-1G>C</p><p><b>Variant common name</b>: G242E</p></div>"
  },  
  "status": "final",
  "category": {
    "coding": [
      {
        "system": "http://hl7.org/fhir/v2/0074",
        "code": "GE",
        "display": "Genetics"
      }
    ]
  },
  "code": {
    "coding": [
      {
        "display": "FoundationOne"
      }
    ]
  },
  "subject": {
    "reference": "Patient/mCODEPatientExample01",
    "display": "John B. Anyperson"
  },
  "effectiveDateTime": "2019-04-01",
  "issued": "2019-04-01T11:45:33+11:00",
  "performer": 
    {
      "reference": "Organization/mCODEOrganizationExampleFM1"
    },
  "result": [
    {
      "reference": "Observation/mCODEGeneticMutationTestResultExample01",
      "display": "GeneticMutationTestResult"
    },
    {
      "reference": "Observation/mCODEGeneticVariantFoundExample01",
      "display": "GeneticVariantFound"
    }
  ],
  "contained": [
    {
      "resourceType": "Observation",
      "id": "mCODEGeneticMutationTestResultExample01",
      "meta": {
        "profile": [
          "http://hl7.org/fhir/us/shr/StructureDefinition/onco-core-GeneticMutationTestResult"
        ]
      },
      "status": "final",
      "category": 
        {
          "coding": [
            {
              "system": "http://terminology.hl7.org/CodeSystem/observation-category",
              "code": "laboratory"
            }
          ]
        },
      "method": 
      {
        "coding": [
          {
            "system": "https://ncit.nci.nih.gov",
            "code": "C101293",
            "display": "Next Generation Sequencing"
          }
        ]
      },
      "code": {
        "coding": [
          {
            "system": "http://loinc.org",
            "code": "41103-3",
            "display": "Gene XXX mutations found [Identifier] in Blood or Tissue by Molecular genetics method Nominal"
          }
        ]
      },
      "subject": {
        "reference": "Patient/mCODEPatientExample01",
        "display": "John B. Anyperson"
      },
      "effectiveDateTime": "2019-04-01",
      "valueCodeableConcept": {
        "coding": [
          {
            "system": "http://snomed.info/sct",
            "code": "10828004",
            "display":"Positive"
          }
        ]
      },
      "extension": [
        {
          "url": "http://hl7.org/fhir/us/shr/StructureDefinition/shr-core-SpecimenType-extension",
          "valueCodeableConcept": 
            {
              "system": "http://hl7.org/fhir/ValueSet/v2-0487",
              "code": "TISS",
              "display": "Tissue"
            }
          },
        {
          "url": "http://hl7.org/fhir/us/shr/StructureDefinition/onco-core-MutationTested-extension",
          "extension": [
            {
              "url": "http://hl7.org/fhir/us/shr/StructureDefinition/onco-core-GeneStudied-extension",
              "valueCodeableConcept": 
                {
                  "system": "http://loinc.org",
                  "code": "48018-6",
                  "display": "Gene studied [ID]"
                }
            },
            { 
              "url": "http://hl7.org/fhir/us/shr/StructureDefinition/onco-core-VariantIdentifier-extension",
              "valueCodeableConcept": {
                "system": "https://www.genenames.org/",
                "code": "HGNC:11389",
                "display": "STK11"
              }
            },
            { 
              "url": "http://hl7.org/fhir/us/shr/StructureDefinition/onco-core-VariantDescription-extension",
              "valueString": "NM_000455.4:c.921-1G>C"
            }
          ] 
        }
      ]
    },
    {
      "resourceType": "Observation",
      "id": "mCODEGeneticVariantFoundExample01",
      "meta": {
        "profile": [
          "http://hl7.org/fhir/us/shr/StructureDefinition/onco-core-GeneticVariantFound"
        ]
      },
      "status": "final",
      "category": 
        {
          "coding": [
            {
              "system": "http://terminology.hl7.org/CodeSystem/observation-category",
              "code": "laboratory"
            }
          ]
        },
      "method": 
        {
          "coding": [
            {
              "system": "https://ncit.nci.nih.gov",
              "code": "C101293",
              "display": "Next Generation Sequencing"
            }
          ]
        },
      "code": {
        "coding": [
          {
            "system": "http://loinc.org",
            "code": "69548-6",
            "display": "Genetic variant assessment"
          }
        ]
      },
      "subject": {
        "reference": "Patient/mCODEPatientExample01",
        "display": "John B. Anyperson"
      },
      "effectiveDateTime": "2019-04-01",
      "component": [
        {
            "code": {
              "coding": [
                {
                  "system": "http://loinc.org",
                  "code": "48002-0",
                  "display": "Genomic source class [Type]"
                }
              ]
            },
            "valueCodeableConcept": {
              "coding": [
                {
                  "system": "http://hl7.org/fhir/us/mcode/onco-core/vs/GenomicSourceClassVS",
                  "code": "LA6684-0",
                  "display": "Somatic"
                }
              ],
              "text": "Somatic"
            }
          },
          {
            "code": {
              "coding": [
                {
                  "system": "http://loinc.org",
                  "code": "48003-8",
                  "display": "DNA sequence variation identifier"
                }
              ]
            },
            "valueCodeableConcept": {
              "coding": [
                {
                  "system": "https://www.ncbi.nlm.nih.gov/clinvar",
                  "code": "619728",
                  "display": "NM_000455.4(STK11):c.725G>A (p.Gly242Glu)"
                }
              ],
              "text": "NM_000455.4(STK11):c.725G>A (p.Gly242Glu)"
            }
          },
          {
            "code": {
              "coding": [
                {
                  "system": "http://loinc.org",
                  "code": "82154-6",
                  "display": "Genomic structural variant name"
                }
              ]
            },
            "valueCodeableConcept": {
              "coding": [
                {
                  "system": "http://varnomen.hgvs.org",
                  "code": "NM_000455.4:c.725G>A",
                  "display": "NM_000455.4:c.725G>A"
                }
              ],
              "text": "G242E"
            }
          },
          {
            "code": {
              "coding": [
                {
                  "system": "http://loinc.org",
                  "code": "47998-0",
                  "display": "DNA sequence variation display name"
                }
              ]
            },
            "valueString": "G242E"
          }
      ]
    }
  ]
}